wavelength	transmission
5400	-0.005
5410	-0.005
5420	-0.005
5430	0.005
5440	0.005
5450	0.02
5460	0.04
5470	0.09
5480	0.175
5490	0.32
5500	0.57
5510	0.965
5520	1.57
5530	2.46
5540	3.705
5550	5.355
5560	7.45
5570	10
5580	12.985
5590	16.39
5600	20.12
5610	24
5620	28.03
5630	32.165
5640	36.225
5650	40.155
5660	43.915
5670	47.495
5680	50.835
5690	53.92
5700	56.84
5710	59.435
5720	61.835
5730	63.975
5740	65.91
5750	67.61
5760	69.215
5770	70.575
5780	71.825
5790	72.9
5800	73.895
5810	74.755
5820	75.53
5830	76.19
5840	76.785
5850	77.325
5860	77.77
5870	78.16
5880	78.49
5890	78.82
5900	79.05
5910	79.22
5920	79.44
5930	79.6
5940	79.73
5950	79.825
5960	79.865
5970	79.935
5980	79.99
5990	79.965
6000	79.955
6010	79.915
6020	79.905
6030	79.83
6040	79.735
6050	79.66
6060	79.575
6070	79.45
6080	79.35
6090	79.235
6100	79.065
6110	78.905
6120	78.755
6130	78.595
6140	78.455
6150	78.25
6160	78.03
6170	77.845
6180	77.605
6190	77.495
6200	77.2
6210	76.965
6220	76.75
6230	76.5
6240	76.275
6250	75.995
6260	75.75
6270	75.485
6280	75.195
6290	74.945
6300	74.69
6310	74.445
6320	74.155
6330	73.83
6340	73.555
6350	73.315
6360	72.945
6370	72.71
6380	72.385
6390	72.12
6400	71.83
6410	71.55
6420	71.18
6430	70.895
6440	70.545
6450	70.255
6460	69.905
6470	69.57
6480	69.29
6490	68.96
6500	68.625
6510	68.265
6520	67.96
6530	67.57
6540	67.27
6550	66.86
6560	66.565
6570	66.185
6580	65.91
6590	65.55
6600	65.155
6610	64.81
6620	64.485
6630	64.145
6640	63.8
6650	63.42
6660	63.12
6670	62.7
6680	62.335
6690	61.995
6700	61.595
6710	61.235
6720	60.89
6730	60.495
6740	60.12
6750	59.735
6760	59.33
6770	58.935
6780	58.52
6790	58.07
6800	57.61
6810	57.13
6820	56.72
6830	56.28
6840	55.805
6850	55.435
6860	54.975
6870	54.51
6880	54.055
6890	53.61
6900	53.165
6910	52.69
6920	52.24
6930	51.81
6940	51.34
6950	50.875
6960	50.445
6970	49.995
6980	49.525
6990	49.08
7000	48.64
7010	48.125
7020	47.68
7030	47.235
7040	46.775
7050	46.355
7060	45.935
7070	45.465
7080	45.035
7090	44.525
7100	44.09
7110	43.625
7120	43.23
7130	42.8
7140	42.33
7150	41.89
7160	41.485
7170	41.06
7180	40.59
7190	40.18
7200	39.71
7210	39.295
7220	38.9
7230	38.44
7240	37.99
7250	37.57
7260	37.155
7270	36.75
7280	36.295
7290	35.89
7300	35.49
7310	35.065
7320	34.625
7330	34.24
7340	33.825
7350	33.425
7360	33.03
7370	32.615
7380	32.165
7390	31.81
7400	31.34
7410	30.97
7420	30.59
7430	30.175
7440	29.8
7450	29.43
7460	29.04
7470	28.625
7480	28.25
7490	27.885
7500	27.435
7510	27.05
7520	26.71
7530	26.365
7540	25.96
7550	25.57
7560	25.205
7570	24.875
7580	24.465
7590	24.125
7600	23.765
7610	23.405
7620	23.05
7630	22.695
7640	22.345
7650	22.025
7660	21.7
7670	21.325
7680	21
7690	20.705
7700	20.35
7710	20.01
7720	19.69
7730	19.36
7740	19.08
7750	18.76
7760	18.43
7770	18.135
7780	17.855
7790	17.525
7800	17.29
7810	16.93
7820	16.675
7830	16.37
7840	16.075
7850	15.81
7860	15.555
7870	15.255
7880	15.015
7890	14.735
7900	14.455
7910	14.225
7920	13.98
7930	13.695
7940	13.445
7950	13.205
7960	12.95
7970	12.77
7980	12.52
7990	12.28
8000	12.04
8010	11.79
8020	11.595
8030	11.385
8040	11.14
8050	10.99
8060	10.745
8070	10.51
8080	10.35
8090	10.17
8100	9.94
8110	9.755
8120	9.535
8130	9.315
8140	9.19
8150	9
8160	8.835
8170	8.64
8180	8.475
8190	8.31
8200	8.125
8210	7.985
8220	7.81
8230	7.645
8240	7.49
8250	7.355
8260	7.18
8270	7.02
8280	6.905
8290	6.74
8300	6.63
8310	6.465
8320	6.36
8330	6.215
8340	6.075
8350	5.975
8360	5.845
8370	5.705
8380	5.575
8390	5.465
8400	5.375
8410	5.205
8420	5.13
8430	5.01
8440	4.875
8450	4.79
8460	4.705
8470	4.59
8480	4.485
8490	4.39
8500	4.255
8510	4.18
8520	4.125
8530	4.025
8540	3.92
8550	3.855
8560	3.745
8570	3.615
8580	3.59
8590	3.485
8600	3.435
8610	3.64
8620	3.565
8630	3.4
8640	3.425
8650	3.3
8660	3.225
8670	3.165
8680	3.02
8690	2.955
8700	2.93
8710	2.895
8720	2.825
8730	2.755
8740	2.655
8750	2.69
8760	2.625
8770	2.535
8780	2.465
8790	2.35
8800	2.37
8810	2.305
8820	2.215
8830	2.19
8840	2.09
8850	2.085
8860	2.07
8870	1.985
8880	1.915
8890	1.97
8900	1.825
8910	1.845
8920	1.8
8930	1.655
8940	1.72
8950	1.655
8960	1.625
8970	1.59
8980	1.555
8990	1.55
9000	1.455
9010	1.42
9020	1.34
9030	1.45
9040	1.425
9050	1.34
9060	1.29
9070	1.25
9080	1.125
9090	1.26
9100	1.155
9110	1.13
9120	1.15
9130	1.085
9140	1.04
9150	1.03
9160	0.945
9170	1.03
9180	0.985
9190	0.95
9200	0.875
9210	0.895
9220	0.81
9230	0.875
9240	0.835
9250	0.805
9260	0.81
9270	0.785
9280	0.745
9290	0.845
9300	0.705
9310	0.72
9320	0.73
9330	0.705
9340	0.645
9350	0.74
9360	0.63
9370	0.61
9380	0.65
9390	0.58
9400	0.635
9410	0.555
9420	0.475
9430	0.52
9440	0.54
9450	0.55
9460	0.535
9470	0.51
9480	0.51
9490	0.455
9500	0.455
9510	0.475
9520	0.44
9530	0.455
9540	0.445
9550	0.43
9560	0.41
9570	0.39
9580	0.37
9590	0.375
9600	0.34
9610	0.37
9620	0.37
9630	0.31
9640	0.3
9650	0.41
9660	0.39
9670	0.33
9680	0.335
9690	0.305
9700	0.32
9710	0.29
9720	0.255
9730	0.28
9740	0.3
9750	0.22
9760	0.255
9770	0.235
9780	0.225
9790	0.27
9800	0.25
9810	0.22
9820	0.165
9830	0.155
9840	0.27
9850	0.17
9860	0.195
9870	0.215
9880	0.19
9890	0.215
9900	0.21
9910	0.18
9920	0.115
9930	0.165
9940	0.175
9950	0.215
9960	0.23
9970	0.215
9980	0.22
9990	0.24
10000	0.16
